Folder: out/Scaling_Pyrolysis

File: FSRI_XPS_Foam_Board_devc.csv
s,C,kW/m2,C,kW/m2,C,kW/m2
Time,"WALL TEMPERATURE-CONE_27p07_025","HRRPUA-CONE_27p07_025","WALL TEMPERATURE-CONE_27p07_050","HRRPUA-CONE_27p07_050","WALL TEMPERATURE-CONE_27p07_075","HRRPUA-CONE_27p07_075"
 0.000E+00, 2.700E+01, 0.000E+00, 2.700E+01, 0.000E+00, 2.700E+01, 0.000E+00
 8.000E+00, 4.720E+02, 0.000E+00, 6.687E+02, 0.000E+00, 8.569E+02, 8.535E+01
 1.600E+01, 4.837E+02, 0.000E+00, 6.511E+02, 2.598E+00, 7.622E+02, 5.271E+02
 2.400E+01, 4.897E+02, 0.000E+00, 6.552E+02, 1.641E+02, 7.652E+02, 1.120E+03
 3.200E+01, 4.931E+02, 0.000E+00, 6.575E+02, 4.778E+02, 7.669E+02, 8.554E+02
 4.000E+01, 4.948E+02, 0.000E+00, 6.586E+02, 7.383E+02, 7.676E+02, 3.646E+02
 4.800E+01, 4.960E+02, 0.000E+00, 6.594E+02, 7.798E+02, 7.682E+02, 1.160E+02
 5.600E+01, 4.969E+02, 0.000E+00, 6.601E+02, 5.219E+02, 7.687E+02, 4.070E+01
 6.400E+01, 4.976E+02, 0.000E+00, 6.606E+02, 2.345E+02, 7.691E+02, 1.033E+01
 7.200E+01, 4.981E+02, 0.000E+00, 6.610E+02, 7.788E+01, 7.695E+02, 2.675E+00
 8.000E+01, 4.986E+02, 0.000E+00, 6.614E+02, 2.472E+01, 7.698E+02, 1.288E-03
 8.800E+01, 4.990E+02, 0.000E+00, 6.617E+02, 8.716E+00, 7.700E+02, 0.000E+00
 9.600E+01, 4.994E+02, 0.000E+00, 6.620E+02, 3.665E+00, 7.702E+02, 0.000E+00
 1.040E+02, 4.997E+02, 0.000E+00, 6.622E+02, 2.504E+00, 7.704E+02, 0.000E+00
 1.120E+02, 5.000E+02, 0.000E+00, 6.624E+02, 1.609E+00, 7.706E+02, 0.000E+00
 1.200E+02, 5.003E+02, 0.000E+00, 6.626E+02, 1.120E+00, 7.708E+02, 0.000E+00
 1.280E+02, 5.005E+02, 0.000E+00, 6.628E+02, 8.127E-01, 7.710E+02, 0.000E+00
 1.360E+02, 5.008E+02, 0.000E+00, 6.630E+02, 5.040E-01, 7.711E+02, 0.000E+00
 1.440E+02, 5.010E+02, 0.000E+00, 6.631E+02, 2.835E-01, 7.712E+02, 0.000E+00
 1.520E+02, 5.011E+02, 0.000E+00, 6.633E+02, 1.978E-01, 7.713E+02, 0.000E+00
 1.600E+02, 5.013E+02, 1.797E+01, 6.634E+02, 1.119E-01, 7.714E+02, 0.000E+00
 1.680E+02, 5.015E+02, 5.797E+01, 6.635E+02, 3.664E-02, 7.715E+02, 0.000E+00
 1.760E+02, 5.016E+02, 1.654E+02, 6.636E+02, 4.748E-02, 7.716E+02, 0.000E+00
 1.840E+02, 5.017E+02, 3.412E+02, 6.637E+02, 5.833E-02, 7.717E+02, 0.000E+00
 1.920E+02, 5.019E+02, 5.443E+02, 6.638E+02, 6.915E-02, 7.718E+02, 0.000E+00
 2.000E+02, 5.020E+02, 6.254E+02, 6.639E+02, 8.888E-02, 7.719E+02, 0.000E+00
 2.080E+02, 5.021E+02, 5.221E+02, 6.640E+02, 1.105E-01, 7.719E+02, 0.000E+00
 2.160E+02, 5.022E+02, 3.597E+02, 6.641E+02, 1.321E-01, 7.720E+02, 0.000E+00
 2.240E+02, 5.023E+02, 2.159E+02, 6.642E+02, 1.187E-01, 7.721E+02, 0.000E+00
 2.320E+02, 5.024E+02, 1.161E+02, 6.642E+02, 7.549E-02, 7.721E+02, 0.000E+00
 2.400E+02, 5.025E+02, 5.651E+01, 6.643E+02, 3.221E-02, 7.722E+02, 0.000E+00
 2.480E+02, 5.025E+02, 3.301E+01, 6.644E+02, 0.000E+00, 7.722E+02, 0.000E+00
 2.560E+02, 5.026E+02, 1.894E+01, 6.644E+02, 0.000E+00, 7.723E+02, 0.000E+00
 2.640E+02, 5.027E+02, 1.527E+01, 6.645E+02, 0.000E+00, 7.723E+02, 0.000E+00
 2.720E+02, 5.027E+02, 1.174E+01, 6.645E+02, 0.000E+00, 7.724E+02, 0.000E+00
 2.800E+02, 5.028E+02, 8.224E+00, 6.646E+02, 0.000E+00, 7.724E+02, 0.000E+00
 2.880E+02, 5.029E+02, 4.718E+00, 6.646E+02, 0.000E+00, 7.725E+02, 0.000E+00
 2.960E+02, 5.029E+02, 1.716E+00, 6.647E+02, 0.000E+00, 7.725E+02, 0.000E+00
 3.040E+02, 5.030E+02, 1.363E+00, 6.647E+02, 0.000E+00, 7.725E+02, 0.000E+00
 3.120E+02, 5.030E+02, 1.013E+00, 6.647E+02, 0.000E+00, 7.726E+02, 0.000E+00
 3.200E+02, 5.031E+02, 6.635E-01, 6.648E+02, 0.000E+00, 7.726E+02, 0.000E+00
 3.280E+02, 5.031E+02, 3.138E-01, 6.648E+02, 0.000E+00, 7.726E+02, 0.000E+00
 3.360E+02, 5.032E+02, 3.727E-04, 6.648E+02, 0.000E+00, 7.726E+02, 0.000E+00
 3.440E+02, 5.032E+02, 0.000E+00, 6.649E+02, 0.000E+00, 7.727E+02, 0.000E+00
 3.520E+02, 5.032E+02, 0.000E+00, 6.649E+02, 0.000E+00, 7.727E+02, 0.000E+00
 3.600E+02, 5.033E+02, 0.000E+00, 6.649E+02, 0.000E+00, 7.727E+02, 0.000E+00
 3.680E+02, 5.033E+02, 0.000E+00, 6.650E+02, 0.000E+00, 7.727E+02, 0.000E+00
 3.760E+02, 5.033E+02, 0.000E+00, 6.650E+02, 0.000E+00, 7.728E+02, 0.000E+00
 3.840E+02, 5.034E+02, 0.000E+00, 6.650E+02, 0.000E+00, 7.728E+02, 0.000E+00
 3.920E+02, 5.034E+02, 0.000E+00, 6.650E+02, 0.000E+00, 7.728E+02, 0.000E+00
 4.000E+02, 5.034E+02, 0.000E+00, 6.650E+02, 0.000E+00, 7.728E+02, 0.000E+00
 4.080E+02, 5.035E+02, 0.000E+00, 6.651E+02, 0.000E+00, 7.728E+02, 0.000E+00
 4.160E+02, 5.035E+02, 0.000E+00, 6.651E+02, 0.000E+00, 7.729E+02, 0.000E+00
 4.240E+02, 5.035E+02, 0.000E+00, 6.651E+02, 0.000E+00, 7.729E+02, 0.000E+00
 4.320E+02, 5.035E+02, 0.000E+00, 6.651E+02, 0.000E+00, 7.729E+02, 0.000E+00
 4.400E+02, 5.035E+02, 0.000E+00, 6.651E+02, 0.000E+00, 7.729E+02, 0.000E+00
 4.480E+02, 5.036E+02, 0.000E+00, 6.652E+02, 0.000E+00, 7.729E+02, 0.000E+00
 4.560E+02, 5.036E+02, 0.000E+00, 6.652E+02, 0.000E+00, 7.729E+02, 0.000E+00
 4.640E+02, 5.036E+02, 0.000E+00, 6.652E+02, 0.000E+00, 7.729E+02, 0.000E+00
 4.720E+02, 5.036E+02, 0.000E+00, 6.652E+02, 0.000E+00, 7.729E+02, 0.000E+00
 4.800E+02, 5.036E+02, 0.000E+00, 6.652E+02, 0.000E+00, 7.730E+02, 0.000E+00
 4.880E+02, 5.037E+02, 0.000E+00, 6.652E+02, 0.000E+00, 7.730E+02, 0.000E+00
 4.960E+02, 5.037E+02, 0.000E+00, 6.652E+02, 0.000E+00, 7.730E+02, 0.000E+00
 5.040E+02, 5.037E+02, 0.000E+00, 6.653E+02, 0.000E+00, 7.730E+02, 0.000E+00
 5.120E+02, 5.037E+02, 0.000E+00, 6.653E+02, 0.000E+00, 7.730E+02, 0.000E+00
 5.200E+02, 5.037E+02, 0.000E+00, 6.653E+02, 0.000E+00, 7.730E+02, 0.000E+00
 5.280E+02, 5.037E+02, 0.000E+00, 6.653E+02, 0.000E+00, 7.730E+02, 0.000E+00
 5.360E+02, 5.037E+02, 0.000E+00, 6.653E+02, 0.000E+00, 7.730E+02, 0.000E+00
 5.440E+02, 5.038E+02, 0.000E+00, 6.653E+02, 0.000E+00, 7.730E+02, 0.000E+00
 5.520E+02, 5.038E+02, 0.000E+00, 6.653E+02, 0.000E+00, 7.730E+02, 0.000E+00
 5.600E+02, 5.038E+02, 0.000E+00, 6.653E+02, 0.000E+00, 7.730E+02, 0.000E+00
 5.680E+02, 5.038E+02, 0.000E+00, 6.653E+02, 0.000E+00, 7.731E+02, 0.000E+00
 5.760E+02, 5.038E+02, 0.000E+00, 6.653E+02, 0.000E+00, 7.731E+02, 0.000E+00
 5.840E+02, 5.038E+02, 0.000E+00, 6.653E+02, 0.000E+00, 7.731E+02, 0.000E+00
 5.920E+02, 5.038E+02, 0.000E+00, 6.653E+02, 0.000E+00, 7.731E+02, 0.000E+00
 6.000E+02, 5.038E+02, 0.000E+00, 6.654E+02, 0.000E+00, 7.731E+02, 0.000E+00
 6.080E+02, 5.038E+02, 0.000E+00, 6.654E+02, 0.000E+00, 7.731E+02, 0.000E+00
 6.160E+02, 5.038E+02, 0.000E+00, 6.654E+02, 0.000E+00, 7.731E+02, 0.000E+00
 6.240E+02, 5.039E+02, 0.000E+00, 6.654E+02, 0.000E+00, 7.731E+02, 0.000E+00
 6.320E+02, 5.039E+02, 0.000E+00, 6.654E+02, 0.000E+00, 7.731E+02, 0.000E+00
 6.400E+02, 5.039E+02, 0.000E+00, 6.654E+02, 0.000E+00, 7.731E+02, 0.000E+00
 6.480E+02, 5.039E+02, 0.000E+00, 6.654E+02, 0.000E+00, 7.731E+02, 0.000E+00
 6.560E+02, 5.039E+02, 0.000E+00, 6.654E+02, 0.000E+00, 7.731E+02, 0.000E+00
 6.640E+02, 5.039E+02, 0.000E+00, 6.654E+02, 0.000E+00, 7.731E+02, 0.000E+00
 6.720E+02, 5.039E+02, 0.000E+00, 6.654E+02, 0.000E+00, 7.731E+02, 0.000E+00
 6.800E+02, 5.039E+02, 0.000E+00, 6.654E+02, 0.000E+00, 7.731E+02, 0.000E+00
 6.880E+02, 5.039E+02, 0.000E+00, 6.654E+02, 0.000E+00, 7.731E+02, 0.000E+00
 6.960E+02, 5.039E+02, 0.000E+00, 6.654E+02, 0.000E+00, 7.731E+02, 0.000E+00
 7.040E+02, 5.039E+02, 0.000E+00, 6.654E+02, 0.000E+00, 7.731E+02, 0.000E+00
 7.120E+02, 5.039E+02, 0.000E+00, 6.654E+02, 0.000E+00, 7.731E+02, 0.000E+00
 7.200E+02, 5.039E+02, 0.000E+00, 6.654E+02, 0.000E+00, 7.731E+02, 0.000E+00
 7.280E+02, 5.039E+02, 0.000E+00, 6.654E+02, 0.000E+00, 7.731E+02, 0.000E+00
 7.360E+02, 5.039E+02, 0.000E+00, 6.654E+02, 0.000E+00, 7.731E+02, 0.000E+00
 7.440E+02, 5.039E+02, 0.000E+00, 6.654E+02, 0.000E+00, 7.731E+02, 0.000E+00
 7.520E+02, 5.039E+02, 0.000E+00, 6.654E+02, 0.000E+00, 7.731E+02, 0.000E+00
 7.600E+02, 5.039E+02, 0.000E+00, 6.654E+02, 0.000E+00, 7.731E+02, 0.000E+00
 7.680E+02, 5.039E+02, 0.000E+00, 6.654E+02, 0.000E+00, 7.732E+02, 0.000E+00
 7.760E+02, 5.039E+02, 0.000E+00, 6.654E+02, 0.000E+00, 7.732E+02, 0.000E+00
 7.840E+02, 5.039E+02, 0.000E+00, 6.654E+02, 0.000E+00, 7.732E+02, 0.000E+00
 7.920E+02, 5.040E+02, 0.000E+00, 6.654E+02, 0.000E+00, 7.732E+02, 0.000E+00
 7.970E+02, 5.040E+02, 0.000E+00, 6.655E+02, 0.000E+00, 7.732E+02, 0.000E+00